# Format: McCode with text headers
# URL: http://www.mccode.org
# Creator: McStas 2.1rc1 - Mar. 10, 2014
# Instrument: C:/My_Docs/mc/MERLIN_mcstas/merlin_RAEmod.instr
# Ncount: 4000000
# Trace: no
# Gravitation: no
# Seed: 1484151893
# Directory: C:/My_Docs/mc/MERLIN_mcstas/merlin_RAEmod_20170111_162453
# Param: E_min=36
# Param: E_max=37
# Param: m=3
# Param: E_foc=80
# Param: nu_hz=200
# Param: type=3
# Param: lchop=0.01
# Param: chop_w=0.0002
# Date: Wed Jan 11 16:24:58 2017 (1484151898)
# type: array_1d(150)
# Source: MERLIN (C:/My_Docs/mc/MERLIN_mcstas/merlin_RAEmod.instr)
# component: TOF_mod
# position: 0 0 0.001
# title: Time-of-flight monitor
# Ncount: 4000000
# filename: mod.m
# statistics: X0=34.2758; dX=21.8405;
# signal: Min=0; Max=11872.4; Mean=2773.33;
# values: 415999 504.225 680670
# xvar: t
# yvar: (I,I_err)
# xlabel: Time-of-flight [\gms]
# ylabel: Intensity
# xlimits: 0 130
# variables: t I I_err N
0.433333 0 0 0 
1.3 0 0 0 
2.16667 0 0 0 
3.03333 6.72277 2.02699 11 
3.9 75.1728 6.77811 123 
4.76667 259.132 12.5846 424 
5.63333 550.656 18.345 901 
6.5 985.192 24.538 1612 
7.36667 1590.85 31.1812 2603 
8.23333 2307.13 37.5504 3775 
9.1 3182.93 44.1053 5208 
9.96667 4122.28 50.1934 6745 
10.8333 4980.96 55.174 8150 
11.7 6205.12 61.5819 10153 
12.5667 7149.98 66.1044 11699 
13.4333 8604.54 72.5173 14079 
14.3 9496.83 76.1846 15539 
15.1667 10385.5 79.6693 16993 
16.0333 11165.3 82.6063 18269 
16.9 11582.1 84.1341 18951 
17.7667 11872.4 85.1819 19426 
18.6333 11720.2 84.6342 19177 
19.5 11692.1 84.5327 19131 
20.3667 11605.3 84.2184 18989 
21.2333 11169.6 82.6221 18276 
22.1 10871.9 81.5139 17789 
22.9667 10548.6 80.2927 17260 
23.8333 10118.4 78.6382 16556 
24.7 9644.74 76.7756 15781 
25.5667 9324.49 75.4902 15257 
26.4333 8922.34 73.8444 14599 
27.3 8592.93 72.4684 14060 
28.1667 8130.28 70.4905 13303 
29.0333 7835.09 69.199 12820 
29.9 7237.98 66.51 11843 
30.7667 7203.76 66.3525 11787 
31.6333 6774.11 64.3434 11084 
32.5 6654.32 63.772 10888 
33.3667 6107.95 61.0978 9994 
34.2333 5999.77 60.5543 9817 
35.1 5592.13 58.461 9150 
35.9667 5550.57 58.2434 9082 
36.8333 5089.75 55.7733 8328 
37.7 5350.72 57.1852 8755 
38.5667 4788.45 54.0973 7835 
39.4333 4752.39 53.8932 7776 
40.3 4561.71 52.8009 7464 
41.1667 4254.29 50.9908 6961 
42.0333 4360.02 51.6205 7134 
42.9 3896.76 48.8011 6376 
43.7667 3875.37 48.667 6341 
44.6333 3701.8 47.5647 6057 
45.5 3500.73 46.2549 5728 
46.3667 3504.4 46.2791 5734 
47.2333 3236.1 44.4722 5295 
48.1 3130.98 43.7439 5123 
48.9667 3102.87 43.5471 5077 
49.8333 2857.79 41.792 4676 
50.7 2814.4 41.4735 4605 
51.5667 2804.62 41.4014 4589 
52.4333 2582.77 39.7302 4226 
53.3 2477.65 38.9133 4054 
54.1667 2506.37 39.1382 4101 
55.0333 2266.19 37.2157 3708 
55.9 2230.13 36.9184 3649 
56.7667 2154.95 36.2908 3526 
57.6333 2086.5 35.7098 3414 
58.5 1926.99 34.3177 3153 
59.3667 1964.27 34.648 3214 
60.2333 1890.32 33.9896 3093 
61.1 1807.81 33.2395 2958 
61.9667 1689.86 32.1369 2765 
62.8333 1699.03 32.2239 2780 
63.7 1683.14 32.0729 2754 
64.5667 1488.18 30.1582 2435 
65.4333 1433.78 29.6019 2346 
66.3 1431.95 29.583 2343 
67.1667 1378.78 29.0285 2256 
68.0333 1235.77 27.4819 2022 
68.9 1199.1 27.0711 1962 
69.7667 1172.21 26.7658 1918 
70.6333 1189.32 26.9605 1946 
71.5 1148.98 26.4993 1880 
72.3667 1035.92 25.1617 1695 
73.2333 1051.81 25.354 1721 
74.1 993.137 24.6367 1625 
74.9667 1034.08 25.1395 1692 
75.8333 910.019 23.5832 1489 
76.7 925.298 23.7804 1514 
77.5667 891.684 23.3444 1459 
78.4333 875.794 23.1355 1433 
79.3 826.901 22.4804 1353 
80.1667 772.508 21.7285 1264 
81.0333 747.45 21.3732 1223 
81.9 728.504 21.1006 1192 
82.7667 781.064 21.8485 1278 
83.6333 677.167 20.3435 1108 
84.5 652.109 19.9636 1067 
85.3667 646.609 19.8792 1058 
86.2333 619.106 19.4518 1013 
87.1 656.387 20.0289 1074 
87.9667 598.327 19.1226 979 
88.8333 513.375 17.7131 840 
89.7 525.599 17.9228 860 
90.5667 536.6 18.1094 878 
91.4333 496.263 17.4154 812 
92.3 510.931 17.6709 836 
93.1667 471.205 16.97 771 
94.0333 474.872 17.0359 777 
94.9 466.316 16.8818 763 
95.7667 450.426 16.5916 737 
96.6333 472.428 16.992 773 
97.5 436.369 16.3307 714 
98.3667 351.418 14.6551 575 
99.2333 340.417 14.4239 557 
100.1 344.084 14.5014 563 
100.967 363.03 14.8953 594 
101.833 378.309 15.2055 619 
102.7 359.363 14.8199 588 
103.567 356.307 14.7567 583 
104.433 329.416 14.1889 539 
105.3 308.025 13.7205 504 
106.167 310.47 13.7749 508 
107.033 313.526 13.8425 513 
107.9 341.639 14.4498 559 
108.767 275.023 12.9647 450 
109.633 248.743 12.3297 407 
110.5 256.077 12.5102 419 
111.367 254.243 12.4653 416 
112.233 240.798 12.1312 394 
113.1 244.464 12.2232 400 
113.967 237.131 12.0385 388 
114.833 207.795 11.2693 340 
115.7 203.517 11.1526 333 
116.567 221.852 11.6442 363 
117.433 214.518 11.4501 351 
118.3 205.35 11.2028 336 
119.167 201.072 11.0855 329 
120.033 231.63 11.898 379 
120.9 185.182 10.6384 303 
121.767 188.849 10.7432 309 
122.633 171.736 10.2449 281 
123.5 183.96 10.6033 301 
124.367 169.292 10.1717 277 
125.233 185.182 10.6384 303 
126.1 173.57 10.2995 284 
126.967 133.233 9.02369 218 
127.833 141.178 9.28885 231 
128.7 147.29 9.48777 241 
129.567 156.457 9.77858 256 
