# Format: McCode with text headers
# URL: http://www.mccode.org
# Creator: McStas 2.1rc1 - Mar. 10, 2014
# Instrument: C:/My_Docs/mc/MERLIN_mcstas/merlin_RAEmod.instr
# Ncount: 4000000
# Trace: no
# Gravitation: no
# Seed: 1484151838
# Directory: C:/My_Docs/mc/MERLIN_mcstas/merlin_RAEmod_20170111_162358
# Param: E_min=20
# Param: E_max=21
# Param: m=3
# Param: E_foc=80
# Param: nu_hz=200
# Param: type=3
# Param: lchop=0.01
# Param: chop_w=0.0002
# Date: Wed Jan 11 16:24:03 2017 (1484151843)
# type: array_1d(150)
# Source: MERLIN (C:/My_Docs/mc/MERLIN_mcstas/merlin_RAEmod.instr)
# component: TOF_mod
# position: 0 0 0.001
# title: Time-of-flight monitor
# Ncount: 4000000
# filename: mod.m
# statistics: X0=39.9069; dX=22.1238;
# signal: Min=0; Max=8904.69; Mean=2469.12;
# values: 370369 450.367 676295
# xvar: t
# yvar: (I,I_err)
# xlabel: Time-of-flight [\gms]
# ylabel: Intensity
# xlimits: 0 130
# variables: t I I_err N
0.433333 0 0 0 
1.3 0 0 0 
2.16667 0 0 0 
3.03333 0 0 0 
3.9 5.47644 1.7318 10 
4.76667 22.4534 3.50663 41 
5.63333 96.3853 7.26531 176 
6.5 213.581 10.8151 390 
7.36667 452.354 15.7394 826 
8.23333 621.576 18.45 1135 
9.1 906.35 22.2791 1655 
9.96667 1287.51 26.5537 2351 
10.8333 1649.5 30.0556 3012 
11.7 2186.19 34.6014 3992 
12.5667 2578.85 37.5805 4709 
13.4333 3144.57 41.4982 5742 
14.3 3697.14 44.9969 6751 
15.1667 4307.22 48.5677 7865 
16.0333 4852.67 51.5513 8861 
16.9 5375.67 54.2582 9816 
17.7667 6238.76 58.4518 11392 
18.6333 6746.97 60.786 12320 
19.5 7286.95 63.1716 13306 
20.3667 7813.23 65.4131 14267 
21.2333 8163.18 66.8619 14906 
22.1 8639.08 68.7833 15775 
22.9667 8705.89 69.0487 15897 
23.8333 8766.13 69.2872 16007 
24.7 8904.69 69.8326 16260 
25.5667 8820.35 69.5011 16106 
26.4333 8822.54 69.5098 16110 
27.3 8613.89 68.6829 15729 
28.1667 8476.43 68.1327 15478 
29.0333 8348.83 67.6179 15245 
29.9 8007.65 66.2219 14622 
30.7667 8044.34 66.3734 14689 
31.6333 7493.41 64.0603 13683 
32.5 7485.74 64.0275 13669 
33.3667 7049.27 62.1328 12872 
34.2333 6975.89 61.8086 12738 
35.1 6556.94 59.9238 11973 
35.9667 6488.48 59.6102 11848 
36.8333 6157.16 58.0683 11243 
37.7 6032.84 57.4791 11016 
38.5667 5739.31 56.0633 10480 
39.4333 5611.16 55.4339 10246 
40.3 5432.63 54.5449 9920 
41.1667 5072.28 52.7048 9262 
42.0333 4985.75 52.2534 9104 
42.9 4644.57 50.4338 8481 
43.7667 4621.02 50.3058 8438 
44.6333 4507.11 49.6819 8230 
45.5 4122.11 47.5126 7527 
46.3667 4129.23 47.5536 7540 
47.2333 3935.92 46.4271 7187 
48.1 3714.67 45.1034 6783 
48.9667 3728.91 45.1897 6809 
49.8333 3512.59 43.8594 6414 
50.7 3331.32 42.7127 6083 
51.5667 3278.74 42.3743 5987 
52.4333 3123.76 41.3607 5704 
53.3 2858.15 39.5632 5219 
54.1667 3015.87 40.6402 5507 
55.0333 2822.56 39.3161 5154 
55.9 2669.76 38.2371 4875 
56.7667 2521.35 37.1591 4604 
57.6333 2619.93 37.8786 4784 
58.5 2328.03 35.7062 4251 
59.3667 2248.63 35.092 4106 
60.2333 2303.94 35.5209 4207 
61.1 2185.65 34.597 3991 
61.9667 1989.04 33.0043 3632 
62.8333 1947.97 32.6618 3557 
63.7 1992.33 33.0316 3638 
64.5667 1851.58 31.8435 3381 
65.4333 1736.58 30.8387 3171 
66.3 1711.93 30.6191 3126 
67.1667 1730.55 30.7852 3160 
68.0333 1548.74 29.1231 2828 
68.9 1483.02 28.4985 2708 
69.7667 1444.68 28.1278 2638 
70.6333 1469.33 28.3667 2683 
71.5 1373.49 27.426 2508 
72.3667 1281.49 26.4915 2340 
73.2333 1251.37 26.1783 2285 
74.1 1232.75 25.9828 2251 
74.9667 1255.75 26.2241 2293 
75.8333 1072.83 24.239 1959 
76.7 1042.71 23.8963 1904 
77.5667 1019.16 23.625 1861 
78.4333 1053.12 24.0153 1923 
79.3 1014.24 23.5678 1852 
80.1667 893.207 22.1169 1631 
81.0333 880.611 21.9604 1608 
81.9 854.872 21.6371 1561 
82.7667 899.231 22.1914 1642 
83.6333 861.991 21.727 1574 
84.5 761.772 20.425 1391 
85.3667 731.652 20.0171 1336 
86.2333 749.177 20.2554 1368 
87.1 787.512 20.7672 1438 
87.9667 732.747 20.0321 1338 
88.8333 600.217 18.1302 1096 
89.7 615.552 18.3604 1124 
90.5667 667.578 19.1205 1219 
91.4333 640.195 18.7243 1169 
92.3 601.313 18.1468 1098 
93.1667 549.834 17.3526 1004 
94.0333 499.451 16.5385 912 
94.9 495.07 16.4658 904 
95.7667 488.498 16.3561 892 
96.6333 510.404 16.7188 932 
97.5 522.452 16.915 954 
98.3667 441.948 15.5573 807 
99.2333 445.782 15.6246 814 
100.1 454.544 15.7775 830 
100.967 435.924 15.4509 796 
101.833 424.424 15.2458 775 
102.7 406.899 14.9277 743 
103.567 359.254 14.0265 656 
104.433 351.587 13.876 642 
105.3 341.73 13.6801 624 
106.167 346.111 13.7675 632 
107.033 357.064 13.9837 652 
107.9 346.658 13.7784 633 
108.767 305.585 12.9365 558 
109.633 264.512 12.0357 483 
110.5 277.108 12.3189 506 
111.367 294.085 12.6907 537 
112.233 268.893 12.135 491 
113.1 271.631 12.1966 496 
113.967 302.847 12.8784 553 
114.833 249.726 11.6945 456 
115.7 233.296 11.3032 426 
116.567 258.488 11.8979 472 
117.433 219.057 10.9529 400 
118.3 236.034 11.3694 431 
119.167 239.32 11.4482 437 
120.033 232.201 11.2767 424 
120.9 227.82 11.1698 416 
121.767 194.414 10.3184 355 
122.633 188.389 10.1573 344 
123.5 180.722 9.94844 330 
124.367 187.842 10.1425 343 
125.233 200.985 10.4913 367 
126.1 194.961 10.3329 356 
126.967 192.771 10.2747 352 
127.833 164.841 9.50126 301 
128.7 173.055 9.73513 316 
129.567 151.15 9.09814 276 
